Folder: MagSA/Main text Fig 1e TGA

Note: README.md
# MagSA
Data and files to go with upcoming publication entitled: "Chelated magnetic lanthanides as a tunable enthalpic interaction in supramolecular polymers".

File: ^&164-Gd.txt
Title                                                           02.11.2020 09:39
________________________________________________________________________________

Title
Evaluation Categories:

Curve Name:
  ^&164-Gd
  Sample Weight
Curve Values:
          Index              t             Ts             Tr          Value
                           [s]           [°C]           [°C]           [mg]
              0              0         23.265         25.000        4.33505
            231            231         27.212         28.850        4.26815
            462            462         31.098         32.700        4.21402
            693            693         34.962         36.550        4.16234
            924            924         38.856         40.400        4.11493
           1155           1155         42.744         44.250        4.07292
           1386           1386         46.624         48.100        4.03599
           1617           1617         50.516         51.950        4.00393
           1848           1848         54.390         55.800        3.97602
           2079           2079         58.279         59.650        3.95057
           2310           2310         62.164         63.500        3.92902
           2541           2541         66.064         67.350        3.90892
           2772           2772         69.966         71.200        3.89123
           3003           3003         73.851         75.050        3.87549
           3234           3234         77.741         78.900        3.86198
           3465           3465         81.637         82.750         3.8492
           3696           3696         85.483         86.600        3.83864
           3927           3927         89.426         90.450        3.82811
           4158           4158         93.319         94.300        3.81962
           4389           4389         97.210         98.150        3.81141
           4620           4620        101.110        102.000        3.80418
           4851           4851        105.032        105.850        3.79786
           5082           5082        108.940        109.700        3.79168
           5313           5313        112.826        113.550        3.78681
           5544           5544        116.742        117.400        3.78192
           5775           5775        120.636        121.250        3.77762
           6006           6006        124.522        125.100        3.77396
           6237           6237        128.433        128.950        3.77067
           6468           6468        129.541        130.000        3.76826
           6699           6699        129.531        130.000        3.76683
           6930           6930        129.546        130.000        3.76624
           7161           7161        129.542        130.000        3.76312
           7392           7392        129.539        130.000        3.76416
           7623           7623        129.528        130.000         3.7633
           7854           7854        129.534        130.000        3.76292
           8085           8085        129.530        130.000        3.76219
           8316           8316        129.529        130.000        3.76177
           8547           8547        129.535        130.000        3.76132
           8778           8778        129.536        130.000        3.76094
           9009           9009        129.534        130.000        3.76094
           9240           9240        129.541        130.000        3.76115
           9471           9471        129.556        130.000         3.7609
           9702           9702        129.545        130.000        3.76061
           9933           9933        130.107        130.550        3.76056
          10164          10164        133.984        134.400        3.75927
          10395          10395        137.892        138.250        3.75816
          10626          10626        141.809        142.100        3.75696
          10857          10857        145.707        145.950        3.75504
          11088          11088        149.605        149.800        3.75423
          11319          11319        153.511        153.650        3.75287
          11550          11550        157.430        157.500        3.75149
          11781          11781        161.342        161.350        3.75009
          12012          12012        165.249        165.200        3.74922
          12243          12243        169.135        169.050        3.74759
          12474          12474        173.037        172.900        3.74667
          12705          12705        176.930        176.750        3.74553
          12936          12936        180.827        180.600        3.74433
          13167          13167        184.735        184.450        3.74337
          13398          13398        188.639        188.300        3.74255
          13629          13629        192.522        192.150        3.74148
          13860          13860        196.406        196.000        3.74049
          14091          14091        200.311        199.850        3.74002
          14322          14322        204.212        203.700        3.73921
          14553          14553        208.097        207.550         3.7383
          14784          14784        212.002        211.400        3.73807
          15015          15015        215.886        215.250        3.73685
          15246          15246        219.779        219.100        3.73682
          15477          15477        223.678        222.950        3.73619
          15708          15708        227.561        226.800        3.73485
          15939          15939        231.442        230.650        3.73431
          16170          16170        235.330        234.500        3.73355
          16401          16401        239.214        238.350        3.73247
          16632          16632        243.096        242.200        3.73096
          16863          16863        246.969        246.050        3.72997
          17094          17094        250.850        249.900         3.7283
          17325          17325        254.718        253.750        3.72669
          17556          17556        258.601        257.600         3.7255
          17787          17787        262.478        261.450         3.7236
          18018          18018        266.342        265.300        3.72168
          18249          18249        270.214        269.150        3.72012
          18480          18480        274.091        273.000         3.7182
          18711          18711        276.090        275.000        3.71633
          18942          18942        276.082        275.000        3.71443
          19173          19173        276.081        275.000        3.71285
          19404          19404        276.083        275.000        3.71201
          19635          19635        276.082        275.000        3.71099
          19866          19866        276.080        275.000        3.71061
          20097          20097        276.079        275.000        3.70973
          20328          20328        276.088        275.000        3.70897
          20559          20559        276.092        275.000        3.70863
          20790          20790        276.087        275.000        3.70849
          21021          21021        276.089        275.000        3.70768
          21252          21252        276.102        275.000        3.70693
          21483          21483        276.104        275.000        3.70693
          21714          21714        276.103        275.000        3.70646
          21945          21945        276.101        275.000         3.7064
          22176          22176        276.106        275.000        3.70605
          22407          22407        279.597        278.450        3.70557
          22638          22638        283.457        282.300         3.7053
          22869          22869        287.337        286.150        3.70424
          23100          23100        291.191        290.000        3.70347
          23331          23331        295.062        293.850        3.70182
          23562          23562        298.924        297.700        3.69985
          23793          23793        302.799        301.550        3.69782
          24024          24024        306.641        305.400        3.69538
          24255          24255        310.506        309.250        3.69249
          24486          24486        314.368        313.100        3.68965
          24717          24717        318.218        316.950        3.68552
          24948          24948        322.062        320.800         3.6808
          25179          25179        325.916        324.650        3.67573
          25410          25410        329.767        328.500         3.6701
          25641          25641        333.621        332.350         3.6634
          25872          25872        337.459        336.200        3.65541
          26103          26103        341.313        340.050        3.64576
          26334          26334        345.150        343.900        3.63389
          26565          26565        348.999        347.750        3.62003
          26796          26796        351.236        350.000        3.60331
          27027          27027        351.215        350.000        3.58648
          27258          27258        351.215        350.000        3.57053
          27489          27489        351.205        350.000        3.55476
          27720          27720        351.227        350.000        3.53911
          27951          27951        351.221        350.000        3.52311
          28182          28182        351.211        350.000        3.50795
          28413          28413        351.198        350.000         3.4926
          28644          28644        351.216        350.000        3.47711
          28875          28875        351.206        350.000        3.46113
          29106          29106        351.190        350.000        3.44498
          29337          29337        351.193        350.000        3.42923
          29568          29568        351.193        350.000        3.41344
          29799          29799        351.189        350.000        3.39757
          30030          30030        351.190        350.000        3.38136
          30261          30261        351.196        350.000        3.36555
          30300          30300        351.194        350.000        3.36237

Results:
  ? Step	-14.4852 %
  	-0.6295 mg
  Onset	29.85 °C
  Result Mode  Sample Temp

Texts:

  ^&164-Gd
  Sample Weight
  164-Gd, 4.3456 mg

Sample:
  164-Gd, 4.3456 mg
Sample Remarks:

Experiment Comments:
  -
Curve Categories:
Evaluation:

Method:
  Michi_NDI-waterquant_350C
Adjustment:
  From 0.00 to 505.00 min
  Sample Temperature:
    TGA/SF SDTA FRS2, adjusted 09.09.2014 08:42:33
    Tc     : 25.00 °C
    dTs(T) : 1.2204 - 12.4938e-03*T + 8.0181e-06*T^2 °C
    Tau Lag: 6.9852 + 6.4049e-03*T + 0.0000*T^2 s
  Heatflow
    E Indium      : 29.0849 1/mW
    dE relative   : 3.2150 - 879.3278e-06*T - 7.1178e-06*T^2
      adjusted    : (09.09.2014 08:43:30)
  RTyp, adjusted 09.09.2014 08:41:23
  Tc     : 25.00 °C
  dTc(T) : 3.1957 + 9.6752e-03*T - 19.4000e-06*T^2 °C
  Balance:
    Type    : XP1U
    adjusted: -
Sample Holder:
  Alumina 70ul
  Weight  : 185.69 mg
  Material: Ceramic

Order Number:

Customer:

User:
  METTLER

________________________________________________________________________________
Not signed                                                        STARe SW 16.10